"STUDYID","USUBJID","SUBJID","SITEID","COUNTRY","AGE","AGEU","SEX","RACE","ETHNIC","ARM","ARMCD","ACTARM","ACTARMCD","DTHDTC","DTHFL","ITTFL","AGEGR1","AGEGR1N","TRTSDTM","TRTSTMF","TRTEDTM","TRTETMF","LSTALVDT"
"CDISCPILOT01","01-701-1015","1015","701","USA",63,"YEARS","F","WHITE","HISPANIC OR LATINO","Placebo","Pbo","Placebo","Pbo",NA,NA,"Y",">50",3,2014-01-02,"H",2014-01-16,"H",2014-07-02
"CDISCPILOT01","01-701-1023","1023","701","USA",64,"YEARS","M","WHITE","HISPANIC OR LATINO","Placebo","Pbo","Placebo","Pbo",NA,NA,"Y",">50",3,2012-08-05,"H",2012-08-27,"H",2013-02-18
"CDISCPILOT01","01-701-1028","1028","701","USA",71,"YEARS","M","WHITE","NOT HISPANIC OR LATINO","Xanomeline High Dose","Xan_Hi","Xanomeline High Dose","Xan_Hi",NA,NA,"Y",">50",3,2013-07-19,"H",2013-08-01,"H",2014-01-14
"CDISCPILOT01","01-701-1033","1033","701","USA",74,"YEARS","M","WHITE","NOT HISPANIC OR LATINO","Xanomeline Low Dose","Xan_Lo","Xanomeline Low Dose","Xan_Lo",NA,NA,"Y",">50",3,2014-03-18,"H",2014-03-31,"H",2014-09-15
"CDISCPILOT01","01-701-1034","1034","701","USA",77,"YEARS","F","WHITE","NOT HISPANIC OR LATINO","Xanomeline High Dose","Xan_Hi","Xanomeline High Dose","Xan_Hi",NA,NA,"Y",">50",3,2014-07-01,"H",2014-07-15,"H",2014-12-30
"CDISCPILOT01","01-701-1047","1047","701","USA",85,"YEARS","F","WHITE","NOT HISPANIC OR LATINO","Placebo","Pbo","Placebo","Pbo",NA,NA,"Y",">50",3,2013-02-12,"H",2013-02-25,"H",2013-07-28
"CDISCPILOT01","01-701-1057","1057","701","USA",59,"YEARS","F","WHITE","HISPANIC OR LATINO","Screen Failure","Scrnfail","Screen Failure","Scrnfail",NA,NA,"N",">50",3,NA,NA,NA,NA,2013-12-20
"CDISCPILOT01","01-701-1097","1097","701","USA",68,"YEARS","M","WHITE","NOT HISPANIC OR LATINO","Xanomeline Low Dose","Xan_Lo","Xanomeline Low Dose","Xan_Lo",NA,NA,"Y",">50",3,2014-01-01,"H",2014-01-15,"H",2014-07-09
"CDISCPILOT01","01-701-1111","1111","701","USA",81,"YEARS","F","WHITE","NOT HISPANIC OR LATINO","Xanomeline Low Dose","Xan_Lo","Xanomeline Low Dose","Xan_Lo",NA,NA,"Y",">50",3,2012-09-07,"H",2012-09-16,"H",2013-02-22
"CDISCPILOT01","01-701-1115","1115","701","USA",84,"YEARS","M","WHITE","NOT HISPANIC OR LATINO","Xanomeline Low Dose","Xan_Lo","Xanomeline Low Dose","Xan_Lo",NA,NA,"Y",">50",3,2012-11-30,"H",2012-12-13,"H",2013-05-20
"CDISCPILOT01","01-701-1118","1118","701","USA",52,"YEARS","M","WHITE","NOT HISPANIC OR LATINO","Placebo","Pbo","Placebo","Pbo",NA,NA,"Y",">50",3,2014-03-12,"H",2014-03-26,"H",NA
"CDISCPILOT01","01-701-1130","1130","701","USA",84,"YEARS","M","WHITE","NOT HISPANIC OR LATINO","Placebo","Pbo","Placebo","Pbo",NA,NA,"Y",">50",3,2014-02-15,"H",2014-03-01,"H",2014-08-16
"CDISCPILOT01","01-701-1133","1133","701","USA",81,"YEARS","F","WHITE","NOT HISPANIC OR LATINO","Xanomeline High Dose","Xan_Hi","Xanomeline High Dose","Xan_Hi",NA,NA,"Y",">50",3,2012-10-28,"H",2012-11-12,"H",2013-04-29
"CDISCPILOT01","01-701-1145","1145","701","USA",57,"YEARS","F","WHITE","NOT HISPANIC OR LATINO","Screen Failure","Scrnfail","Screen Failure","Scrnfail",NA,NA,"N",">50",3,NA,NA,NA,NA,2013-09-05
"CDISCPILOT01","01-701-1146","1146","701","USA",75,"YEARS","F","WHITE","NOT HISPANIC OR LATINO","Xanomeline High Dose","Xan_Hi","Xanomeline High Dose","Xan_Hi",NA,NA,"Y",">50",3,2013-05-20,"H",2013-06-03,"H",2013-06-30
"CDISCPILOT01","01-701-1148","1148","701","USA",57,"YEARS","M","WHITE","NOT HISPANIC OR LATINO","Xanomeline High Dose","Xan_Hi","Xanomeline High Dose","Xan_Hi",NA,NA,"Y",">50",3,2013-08-23,"H",2013-09-05,"H",NA
"CDISCPILOT01","01-701-1153","1153","701","USA",79,"YEARS","F","WHITE","NOT HISPANIC OR LATINO","Placebo","Pbo","Placebo","Pbo",NA,NA,"Y",">50",3,2013-09-23,"H",2013-10-08,"H",2014-04-01
"CDISCPILOT01","01-701-1162","1162","701","USA",82,"YEARS","F","WHITE","NOT HISPANIC OR LATINO","Screen Failure","Scrnfail","Screen Failure","Scrnfail",NA,NA,"N",">50",3,NA,NA,NA,NA,2013-04-18
"CDISCPILOT01","01-701-1176","1176","701","USA",62,"YEARS","F","AMERICAN INDIAN OR ALASKA NATIVE","NOT HISPANIC OR LATINO","Screen Failure","Scrnfail","Screen Failure","Scrnfail",NA,NA,"N",">50",3,NA,NA,NA,NA,2012-09-30
"CDISCPILOT01","01-701-1180","1180","701","USA",56,"YEARS","M","WHITE","NOT HISPANIC OR LATINO","Xanomeline High Dose","Xan_Hi","Xanomeline High Dose","Xan_Hi",NA,NA,"Y",">50",3,2013-02-12,"H",2013-02-25,"H",NA
"CDISCPILOT01","01-701-1181","1181","701","USA",79,"YEARS","F","WHITE","NOT HISPANIC OR LATINO","Xanomeline High Dose","Xan_Hi","Xanomeline Low Dose","Xan_Lo",NA,NA,"Y",">50",3,2013-12-05,"H",2013-12-09,"H",2014-05-23
"CDISCPILOT01","01-701-1188","1188","701","USA",71,"YEARS","M","WHITE","NOT HISPANIC OR LATINO","Xanomeline Low Dose","Xan_Lo","Xanomeline Low Dose","Xan_Lo",NA,NA,"Y",">50",3,2013-02-15,"H",2013-03-02,"H",2013-08-04
"CDISCPILOT01","01-701-1192","1192","701","USA",80,"YEARS","F","WHITE","NOT HISPANIC OR LATINO","Xanomeline Low Dose","Xan_Lo","Xanomeline Low Dose","Xan_Lo",NA,NA,"Y",">50",3,2012-07-22,"H",2012-08-07,"H",NA
"CDISCPILOT01","01-701-1203","1203","701","USA",81,"YEARS","F","BLACK OR AFRICAN AMERICAN","NOT HISPANIC OR LATINO","Placebo","Pbo","Placebo","Pbo",NA,NA,"Y",">50",3,2013-02-02,"H",2013-02-23,"H",2013-08-03
"CDISCPILOT01","01-701-1211","1211","701","USA",76,"YEARS","F","WHITE","NOT HISPANIC OR LATINO","Xanomeline Low Dose","Xan_Lo","Xanomeline Low Dose","Xan_Lo","2013-01-14","Y","Y",">50",3,2012-11-15,"H",2012-11-28,"H",2013-01-14
"CDISCPILOT01","01-701-1234","1234","701","USA",69,"YEARS","M","WHITE","NOT HISPANIC OR LATINO","Placebo","Pbo","Placebo","Pbo",NA,NA,"Y",">50",3,2013-03-30,"H",2013-04-21,"H",2013-09-22
"CDISCPILOT01","01-701-1239","1239","701","USA",56,"YEARS","M","WHITE","HISPANIC OR LATINO","Xanomeline High Dose","Xan_Hi","Xanomeline High Dose","Xan_Hi",NA,NA,"Y",">50",3,2014-01-11,"H",2014-01-25,"H",NA
"CDISCPILOT01","01-701-1240","1240","701","USA",57,"YEARS","F","BLACK OR AFRICAN AMERICAN","NOT HISPANIC OR LATINO","Screen Failure","Scrnfail","Screen Failure","Scrnfail",NA,NA,"N",">50",3,NA,NA,NA,NA,2013-09-22
"CDISCPILOT01","01-701-1275","1275","701","USA",61,"YEARS","M","AMERICAN INDIAN OR ALASKA NATIVE","NOT HISPANIC OR LATINO","Xanomeline High Dose","Xan_Hi","Xanomeline High Dose","Xan_Hi",NA,NA,"Y",">50",3,2014-02-07,"H",2014-02-22,"H",2014-06-14
"CDISCPILOT01","01-701-1287","1287","701","USA",56,"YEARS","F","WHITE","HISPANIC OR LATINO","Xanomeline High Dose","Xan_Hi","Xanomeline High Dose","Xan_Hi",NA,NA,"Y",">50",3,2014-01-25,"H",2014-02-11,"H",2014-07-26
"CDISCPILOT01","01-701-1294","1294","701","USA",67,"YEARS","M","WHITE","NOT HISPANIC OR LATINO","Xanomeline Low Dose","Xan_Lo","Xanomeline Low Dose","Xan_Lo",NA,NA,"Y",">50",3,2013-03-24,"H",2013-04-10,"H",2013-10-08
"CDISCPILOT01","01-701-1302","1302","701","USA",61,"YEARS","M","WHITE","NOT HISPANIC OR LATINO","Xanomeline High Dose","Xan_Hi","Xanomeline High Dose","Xan_Hi",NA,NA,"Y",">50",3,2013-08-29,"H",2013-09-15,"H",2014-02-13
"CDISCPILOT01","01-701-1307","1307","701","USA",80,"YEARS","F","WHITE","NOT HISPANIC OR LATINO","Screen Failure","Scrnfail","Screen Failure","Scrnfail",NA,NA,"N",">50",3,NA,NA,NA,NA,2013-12-08
"CDISCPILOT01","01-701-1317","1317","701","USA",68,"YEARS","M","WHITE","NOT HISPANIC OR LATINO","Xanomeline Low Dose","Xan_Lo","Xanomeline Low Dose","Xan_Lo",NA,NA,"Y",">50",3,2014-05-22,"H",2014-06-05,"H",2014-11-20
"CDISCPILOT01","01-701-1324","1324","701","USA",79,"YEARS","M","WHITE","NOT HISPANIC OR LATINO","Xanomeline Low Dose","Xan_Lo","Xanomeline Low Dose","Xan_Lo",NA,NA,"Y",">50",3,2012-10-02,"H",2012-10-16,"H",2013-04-02
"CDISCPILOT01","01-701-1341","1341","701","USA",51,"YEARS","M","WHITE","NOT HISPANIC OR LATINO","Xanomeline Low Dose","Xan_Lo","Xanomeline Low Dose","Xan_Lo",NA,NA,"Y",">50",3,2013-01-05,"H",2013-01-18,"H",2013-02-07
"CDISCPILOT01","01-701-1345","1345","701","USA",63,"YEARS","F","WHITE","NOT HISPANIC OR LATINO","Placebo","Pbo","Placebo","Pbo",NA,NA,"Y",">50",3,2013-10-08,"H",2013-10-24,"H",2014-03-18
"CDISCPILOT01","01-701-1356","1356","701","USA",54,"YEARS","F","WHITE","HISPANIC OR LATINO","Screen Failure","Scrnfail","Screen Failure","Scrnfail",NA,NA,"N",">50",3,NA,NA,NA,NA,2014-04-01
"CDISCPILOT01","01-701-1360","1360","701","USA",67,"YEARS","M","WHITE","NOT HISPANIC OR LATINO","Xanomeline High Dose","Xan_Hi","Xanomeline Low Dose","Xan_Lo",NA,NA,"Y",">50",3,2013-07-31,"H",2013-08-05,"H",2014-02-11
"CDISCPILOT01","01-701-1363","1363","701","USA",81,"YEARS","F","BLACK OR AFRICAN AMERICAN","NOT HISPANIC OR LATINO","Placebo","Pbo","Placebo","Pbo",NA,NA,"Y",">50",3,2013-05-30,"H",2013-06-12,"H",NA
"CDISCPILOT01","01-701-1369","1369","701","USA",74,"YEARS","M","WHITE","NOT HISPANIC OR LATINO","Screen Failure","Scrnfail","Screen Failure","Scrnfail",NA,NA,"N",">50",3,NA,NA,NA,NA,2013-09-18
"CDISCPILOT01","01-701-1383","1383","701","USA",72,"YEARS","F","WHITE","NOT HISPANIC OR LATINO","Xanomeline High Dose","Xan_Hi","Xanomeline High Dose","Xan_Hi",NA,NA,"Y",">50",3,2013-02-04,"H",2013-02-19,"H",2013-08-06
"CDISCPILOT01","01-701-1386","1386","701","USA",71,"YEARS","M","WHITE","NOT HISPANIC OR LATINO","Screen Failure","Scrnfail","Screen Failure","Scrnfail",NA,NA,"N",">50",3,NA,NA,NA,NA,2013-12-28
"CDISCPILOT01","01-701-1387","1387","701","USA",87,"YEARS","F","WHITE","NOT HISPANIC OR LATINO","Placebo","Pbo","Placebo","Pbo",NA,NA,"Y",">50",3,2014-03-12,"H",2014-03-25,"H",2014-08-27
"CDISCPILOT01","01-701-1392","1392","701","USA",78,"YEARS","M","WHITE","NOT HISPANIC OR LATINO","Placebo","Pbo","Placebo","Pbo",NA,NA,"Y",">50",3,2012-10-28,"H",2012-11-11,"H",2013-04-28
"CDISCPILOT01","01-701-1411","1411","701","USA",76,"YEARS","M","BLACK OR AFRICAN AMERICAN","NOT HISPANIC OR LATINO","Screen Failure","Scrnfail","Screen Failure","Scrnfail",NA,NA,"N",">50",3,NA,NA,NA,NA,2012-11-14
"CDISCPILOT01","01-701-1415","1415","701","USA",85,"YEARS","M","WHITE","NOT HISPANIC OR LATINO","Placebo","Pbo","Placebo","Pbo",NA,NA,"Y",">50",3,2013-09-23,"H",2013-10-07,"H",2014-03-24
"CDISCPILOT01","01-701-1429","1429","701","USA",84,"YEARS","F","WHITE","NOT HISPANIC OR LATINO","Xanomeline Low Dose","Xan_Lo","Xanomeline Low Dose","Xan_Lo",NA,NA,"Y",">50",3,2013-03-19,"H",2013-04-02,"H",2013-04-30
"CDISCPILOT01","01-701-1440","1440","701","USA",70,"YEARS","M","WHITE","NOT HISPANIC OR LATINO","Placebo","Pbo","Placebo","Pbo",NA,NA,"Y",">50",3,2013-08-08,"H",2013-08-23,"H",2014-02-05
"CDISCPILOT01","01-701-1442","1442","701","USA",57,"YEARS","F","BLACK OR AFRICAN AMERICAN","NOT HISPANIC OR LATINO","Xanomeline Low Dose","Xan_Lo","Xanomeline Low Dose","Xan_Lo",NA,NA,"Y",">50",3,2013-10-26,"H",2013-11-09,"H",2014-04-26
"CDISCPILOT01","01-701-1444","1444","701","USA",63,"YEARS","M","WHITE","HISPANIC OR LATINO","Xanomeline High Dose","Xan_Hi","Xanomeline High Dose","Xan_Hi",NA,NA,"Y",">50",3,2013-01-05,"H",2013-01-18,"H",2013-06-20
"CDISCPILOT01","01-702-1082","1082","702","USA",84,"YEARS","F","WHITE","NOT HISPANIC OR LATINO","Xanomeline Low Dose","Xan_Lo","Xanomeline Low Dose","Xan_Lo",NA,NA,"Y",">50",3,2013-07-26,"H",2013-08-08,"H",2013-11-17
"CDISCPILOT01","01-703-1042","1042","703","USA",64,"YEARS","M","WHITE","NOT HISPANIC OR LATINO","Placebo","Pbo","Placebo","Pbo",NA,NA,"Y",">50",3,2013-03-02,"H",2013-03-14,"H",2013-08-31
"CDISCPILOT01","01-703-1076","1076","703","USA",69,"YEARS","M","WHITE","NOT HISPANIC OR LATINO","Xanomeline High Dose","Xan_Hi","Xanomeline High Dose","Xan_Hi",NA,NA,"Y",">50",3,2013-10-25,"H",2013-11-06,"H",NA
"CDISCPILOT01","01-703-1086","1086","703","USA",71,"YEARS","M","WHITE","NOT HISPANIC OR LATINO","Xanomeline Low Dose","Xan_Lo","Xanomeline Low Dose","Xan_Lo",NA,NA,"Y",">50",3,2012-09-02,"H",2012-09-16,"H",2013-03-26
"CDISCPILOT01","01-703-1096","1096","703","USA",81,"YEARS","F","WHITE","NOT HISPANIC OR LATINO","Placebo","Pbo","Placebo","Pbo",NA,NA,"Y",">50",3,2013-01-25,"H",2013-02-09,"H",2013-03-29
"CDISCPILOT01","01-703-1100","1100","703","USA",84,"YEARS","F","WHITE","NOT HISPANIC OR LATINO","Placebo","Pbo","Placebo","Pbo",NA,NA,"Y",">50",3,2013-03-13,"H",2013-03-29,"H",2013-09-14
"CDISCPILOT01","01-703-1119","1119","703","USA",81,"YEARS","F","WHITE","NOT HISPANIC OR LATINO","Xanomeline Low Dose","Xan_Lo","Xanomeline Low Dose","Xan_Lo",NA,NA,"Y",">50",3,2013-02-20,"H",2013-03-10,"H",2013-08-24
"CDISCPILOT01","01-703-1175","1175","703","USA",75,"YEARS","M","WHITE","NOT HISPANIC OR LATINO","Placebo","Pbo","Placebo","Pbo",NA,NA,"Y",">50",3,2013-12-20,"H",2013-12-26,"H",2013-12-31
"CDISCPILOT01","01-703-1182","1182","703","USA",84,"YEARS","M","WHITE","NOT HISPANIC OR LATINO","Xanomeline Low Dose","Xan_Lo","Xanomeline Low Dose","Xan_Lo",NA,NA,"Y",">50",3,2013-10-17,"H",2013-10-31,"H",2013-12-12
"CDISCPILOT01","01-703-1197","1197","703","USA",76,"YEARS","F","BLACK OR AFRICAN AMERICAN","NOT HISPANIC OR LATINO","Xanomeline Low Dose","Xan_Lo","Xanomeline Low Dose","Xan_Lo",NA,NA,"Y",">50",3,2013-06-16,"H",2013-06-29,"H",2013-07-22
"CDISCPILOT01","01-703-1210","1210","703","USA",72,"YEARS","F","WHITE","NOT HISPANIC OR LATINO","Placebo","Pbo","Placebo","Pbo",NA,NA,"Y",">50",3,2013-03-16,"H",2013-03-30,"H",2013-09-06
"CDISCPILOT01","01-703-1258","1258","703","USA",78,"YEARS","F","WHITE","NOT HISPANIC OR LATINO","Xanomeline High Dose","Xan_Hi","Xanomeline High Dose","Xan_Hi",NA,NA,"Y",">50",3,2012-07-20,"H",2012-08-01,"H",NA
"CDISCPILOT01","01-703-1279","1279","703","USA",72,"YEARS","F","WHITE","NOT HISPANIC OR LATINO","Xanomeline Low Dose","Xan_Lo","Xanomeline Low Dose","Xan_Lo",NA,NA,"Y",">50",3,2013-05-13,"H",2013-06-03,"H",2013-06-22
"CDISCPILOT01","01-703-1295","1295","703","USA",88,"YEARS","F","WHITE","NOT HISPANIC OR LATINO","Xanomeline High Dose","Xan_Hi","Xanomeline High Dose","Xan_Hi",NA,NA,"Y",">50",3,2013-11-21,"H",2013-12-05,"H",2014-05-19
"CDISCPILOT01","01-703-1299","1299","703","USA",81,"YEARS","F","WHITE","NOT HISPANIC OR LATINO","Placebo","Pbo","Placebo","Pbo",NA,NA,"Y",">50",3,2012-09-12,"H",2012-09-28,"H",NA
"CDISCPILOT01","01-703-1335","1335","703","USA",67,"YEARS","F","BLACK OR AFRICAN AMERICAN","NOT HISPANIC OR LATINO","Xanomeline High Dose","Xan_Hi","Xanomeline High Dose","Xan_Hi",NA,NA,"Y",">50",3,2014-03-17,"H",2014-03-31,"H",2014-05-24
"CDISCPILOT01","01-703-1379","1379","703","USA",81,"YEARS","F","BLACK OR AFRICAN AMERICAN","NOT HISPANIC OR LATINO","Xanomeline Low Dose","Xan_Lo","Xanomeline Low Dose","Xan_Lo",NA,NA,"Y",">50",3,2013-09-22,"H",2013-10-07,"H",2014-03-21
"CDISCPILOT01","01-703-1396","1396","703","USA",84,"YEARS","M","ASIAN","NOT HISPANIC OR LATINO","Screen Failure","Scrnfail","Screen Failure","Scrnfail",NA,NA,"N",">50",3,NA,NA,NA,NA,2014-02-09
"CDISCPILOT01","01-703-1403","1403","703","USA",67,"YEARS","M","WHITE","NOT HISPANIC OR LATINO","Xanomeline High Dose","Xan_Hi","Xanomeline Low Dose","Xan_Lo",NA,NA,"Y",">50",3,2012-12-12,"H",2012-12-13,"H",2012-12-19
"CDISCPILOT01","01-703-1439","1439","703","USA",76,"YEARS","F","WHITE","NOT HISPANIC OR LATINO","Xanomeline High Dose","Xan_Hi","Xanomeline High Dose","Xan_Hi",NA,NA,"Y",">50",3,2014-03-12,"H",2014-03-26,"H",2014-09-11
"CDISCPILOT01","01-704-1008","1008","704","USA",76,"YEARS","F","WHITE","NOT HISPANIC OR LATINO","Xanomeline High Dose","Xan_Hi","Xanomeline High Dose","Xan_Hi",NA,NA,"Y",">50",3,2013-01-13,"H",2013-01-28,"H",2013-02-25
"CDISCPILOT01","01-704-1009","1009","704","USA",83,"YEARS","M","WHITE","NOT HISPANIC OR LATINO","Xanomeline Low Dose","Xan_Lo","Xanomeline Low Dose","Xan_Lo",NA,NA,"Y",">50",3,2013-08-27,"H",2013-09-14,"H",2013-10-02
"CDISCPILOT01","01-704-1010","1010","704","USA",80,"YEARS","M","WHITE","NOT HISPANIC OR LATINO","Placebo","Pbo","Placebo","Pbo",NA,NA,"Y",">50",3,2014-02-21,"H",2014-03-08,"H",2014-07-09
"CDISCPILOT01","01-704-1017","1017","704","USA",77,"YEARS","M","WHITE","NOT HISPANIC OR LATINO","Xanomeline High Dose","Xan_Hi","Xanomeline High Dose","Xan_Hi",NA,NA,"Y",">50",3,2013-10-06,"H",2013-10-19,"H",2013-11-24
"CDISCPILOT01","01-704-1025","1025","704","USA",81,"YEARS","F","WHITE","NOT HISPANIC OR LATINO","Xanomeline Low Dose","Xan_Lo","Xanomeline Low Dose","Xan_Lo",NA,NA,"Y",">50",3,2013-09-27,"H",2013-10-11,"H",2013-11-29
"CDISCPILOT01","01-704-1065","1065","704","USA",75,"YEARS","M","WHITE","NOT HISPANIC OR LATINO","Xanomeline High Dose","Xan_Hi","Xanomeline High Dose","Xan_Hi",NA,NA,"Y",">50",3,2013-10-24,"H",2013-11-07,"H",2013-12-24
"CDISCPILOT01","01-704-1074","1074","704","USA",80,"YEARS","F","WHITE","NOT HISPANIC OR LATINO","Xanomeline High Dose","Xan_Hi","Xanomeline High Dose","Xan_Hi",NA,NA,"Y",">50",3,2014-01-22,"H",2014-02-09,"H",2014-03-31
"CDISCPILOT01","01-704-1093","1093","704","USA",79,"YEARS","M","WHITE","NOT HISPANIC OR LATINO","Xanomeline High Dose","Xan_Hi","Xanomeline High Dose","Xan_Hi",NA,NA,"Y",">50",3,2013-03-15,"H",2013-03-30,"H",2013-12-25
"CDISCPILOT01","01-704-1114","1114","704","USA",77,"YEARS","M","WHITE","NOT HISPANIC OR LATINO","Xanomeline Low Dose","Xan_Lo","Xanomeline Low Dose","Xan_Lo",NA,NA,"Y",">50",3,2013-01-23,"H",2013-02-03,"H",2013-07-08
"CDISCPILOT01","01-704-1120","1120","704","USA",71,"YEARS","F","WHITE","NOT HISPANIC OR LATINO","Xanomeline Low Dose","Xan_Lo","Xanomeline Low Dose","Xan_Lo",NA,NA,"Y",">50",3,2013-12-02,"H",2013-12-15,"H",2014-02-03
"CDISCPILOT01","01-704-1127","1127","704","USA",84,"YEARS","F","WHITE","NOT HISPANIC OR LATINO","Placebo","Pbo","Placebo","Pbo",NA,NA,"Y",">50",3,2013-10-02,"H",2013-10-16,"H",2014-03-31
"CDISCPILOT01","01-704-1135","1135","704","USA",74,"YEARS","F","WHITE","NOT HISPANIC OR LATINO","Xanomeline Low Dose","Xan_Lo","Xanomeline Low Dose","Xan_Lo",NA,NA,"Y",">50",3,2013-10-31,"H",2013-11-14,"H",2014-05-16
"CDISCPILOT01","01-704-1164","1164","704","USA",67,"YEARS","F","WHITE","NOT HISPANIC OR LATINO","Placebo","Pbo","Placebo","Pbo",NA,NA,"Y",">50",3,2012-09-19,"H",2012-10-04,"H",2013-04-04
"CDISCPILOT01","01-704-1218","1218","704","USA",81,"YEARS","F","WHITE","NOT HISPANIC OR LATINO","Xanomeline Low Dose","Xan_Lo","Xanomeline Low Dose","Xan_Lo",NA,NA,"Y",">50",3,2012-11-19,"H",2012-12-03,"H",2013-05-27
"CDISCPILOT01","01-704-1233","1233","704","USA",87,"YEARS","F","WHITE","NOT HISPANIC OR LATINO","Placebo","Pbo","Placebo","Pbo",NA,NA,"Y",">50",3,2013-03-21,"H",2013-04-04,"H",2013-07-14
"CDISCPILOT01","01-704-1241","1241","704","USA",86,"YEARS","M","WHITE","NOT HISPANIC OR LATINO","Xanomeline High Dose","Xan_Hi","Xanomeline High Dose","Xan_Hi",NA,NA,"Y",">50",3,2013-08-25,"H",2013-09-05,"H",2013-10-31
"CDISCPILOT01","01-704-1260","1260","704","USA",71,"YEARS","F","WHITE","NOT HISPANIC OR LATINO","Placebo","Pbo","Placebo","Pbo",NA,NA,"Y",">50",3,2012-08-30,"H",2012-09-13,"H",2013-01-18
"CDISCPILOT01","01-704-1266","1266","704","USA",82,"YEARS","M","WHITE","NOT HISPANIC OR LATINO","Xanomeline High Dose","Xan_Hi","Xanomeline High Dose","Xan_Hi",NA,NA,"Y",">50",3,2013-10-13,"H",2013-10-27,"H",2013-12-06
"CDISCPILOT01","01-704-1323","1323","704","USA",68,"YEARS","F","WHITE","NOT HISPANIC OR LATINO","Xanomeline Low Dose","Xan_Lo","Xanomeline Low Dose","Xan_Lo",NA,NA,"Y",">50",3,2013-07-08,"H",2013-07-23,"H",2013-08-08
"CDISCPILOT01","01-704-1325","1325","704","USA",81,"YEARS","M","WHITE","NOT HISPANIC OR LATINO","Xanomeline Low Dose","Xan_Lo","Xanomeline Low Dose","Xan_Lo",NA,NA,"Y",">50",3,2014-04-23,"H",2014-05-07,"H",2014-08-06
"CDISCPILOT01","01-704-1332","1332","704","USA",80,"YEARS","M","WHITE","NOT HISPANIC OR LATINO","Xanomeline High Dose","Xan_Hi","Xanomeline High Dose","Xan_Hi",NA,NA,"Y",">50",3,2013-12-09,"H",2013-12-23,"H",2014-02-16
"CDISCPILOT01","01-704-1351","1351","704","USA",70,"YEARS","M","WHITE","NOT HISPANIC OR LATINO","Placebo","Pbo","Placebo","Pbo",NA,NA,"Y",">50",3,2013-10-12,"H",2013-10-26,"H",2014-04-18
"CDISCPILOT01","01-704-1388","1388","704","USA",81,"YEARS","M","WHITE","NOT HISPANIC OR LATINO","Placebo","Pbo","Placebo","Pbo",NA,NA,"Y",">50",3,2012-12-07,"H",2012-12-21,"H",2013-06-19
"CDISCPILOT01","01-704-1435","1435","704","USA",74,"YEARS","M","WHITE","NOT HISPANIC OR LATINO","Placebo","Pbo","Placebo","Pbo",NA,NA,"Y",">50",3,2012-11-17,"H",2012-12-01,"H",2013-01-12
"CDISCPILOT01","01-704-1445","1445","704","USA",75,"YEARS","M","WHITE","NOT HISPANIC OR LATINO","Placebo","Pbo","Placebo","Pbo","2014-11-01","Y","Y",">50",3,2014-05-11,"H",2014-05-25,"H",2014-11-01
"CDISCPILOT01","01-705-1011","1011","705","USA",75,"YEARS","F","WHITE","NOT HISPANIC OR LATINO","Screen Failure","Scrnfail","Screen Failure","Scrnfail",NA,NA,"N",">50",3,NA,NA,NA,NA,2013-09-01
"CDISCPILOT01","01-705-1018","1018","705","USA",69,"YEARS","F","WHITE","NOT HISPANIC OR LATINO","Placebo","Pbo","Placebo","Pbo",NA,NA,"Y",">50",3,2013-07-05,"H",NA,NA,2013-07-12
"CDISCPILOT01","01-705-1031","1031","705","USA",56,"YEARS","F","WHITE","HISPANIC OR LATINO","Xanomeline Low Dose","Xan_Lo","Xanomeline Low Dose","Xan_Lo",NA,NA,"Y",">50",3,2013-11-27,"H",2013-12-18,"H",2014-05-11
"CDISCPILOT01","01-705-1058","1058","705","USA",89,"YEARS","M","WHITE","NOT HISPANIC OR LATINO","Screen Failure","Scrnfail","Screen Failure","Scrnfail",NA,NA,"N",">50",3,NA,NA,NA,NA,2013-12-02
"CDISCPILOT01","01-705-1059","1059","705","USA",66,"YEARS","F","WHITE","NOT HISPANIC OR LATINO","Placebo","Pbo","Placebo","Pbo",NA,NA,"Y",">50",3,2013-08-05,"H",2013-08-19,"H",2014-02-06
"CDISCPILOT01","01-705-1112","1112","705","USA",78,"YEARS","M","WHITE","NOT HISPANIC OR LATINO","Screen Failure","Scrnfail","Screen Failure","Scrnfail",NA,NA,"N",">50",3,NA,NA,NA,NA,2014-02-23
"CDISCPILOT01","01-705-1186","1186","705","USA",84,"YEARS","F","WHITE","NOT HISPANIC OR LATINO","Placebo","Pbo","Placebo","Pbo",NA,NA,"Y",">50",3,2014-01-08,"H",2014-01-23,"H",2014-02-07
"CDISCPILOT01","01-705-1199","1199","705","USA",87,"YEARS","M","WHITE","NOT HISPANIC OR LATINO","Xanomeline Low Dose","Xan_Lo","Xanomeline Low Dose","Xan_Lo",NA,NA,"Y",">50",3,2013-09-16,"H",2013-09-28,"H",2013-09-29
"CDISCPILOT01","01-705-1243","1243","705","USA",70,"YEARS","F","WHITE","HISPANIC OR LATINO","Screen Failure","Scrnfail","Screen Failure","Scrnfail",NA,NA,"N",">50",3,NA,NA,NA,NA,2013-02-26
"CDISCPILOT01","01-705-1280","1280","705","USA",56,"YEARS","F","WHITE","NOT HISPANIC OR LATINO","Xanomeline High Dose","Xan_Hi","Xanomeline High Dose","Xan_Hi",NA,NA,"Y",">50",3,2014-01-17,"H",2014-01-31,"H",2014-07-25
"CDISCPILOT01","01-705-1281","1281","705","USA",73,"YEARS","F","BLACK OR AFRICAN AMERICAN","NOT HISPANIC OR LATINO","Xanomeline High Dose","Xan_Hi","Xanomeline High Dose","Xan_Hi",NA,NA,"Y",">50",3,2013-11-28,"H",2013-12-15,"H",2014-03-17
"CDISCPILOT01","01-705-1282","1282","705","USA",70,"YEARS","F","BLACK OR AFRICAN AMERICAN","NOT HISPANIC OR LATINO","Placebo","Pbo","Placebo","Pbo",NA,NA,"Y",">50",3,2012-12-26,"H",2013-01-09,"H",2013-06-24
"CDISCPILOT01","01-705-1292","1292","705","USA",60,"YEARS","F","BLACK OR AFRICAN AMERICAN","NOT HISPANIC OR LATINO","Xanomeline Low Dose","Xan_Lo","Xanomeline Low Dose","Xan_Lo",NA,NA,"Y",">50",3,2013-10-14,"H",2013-10-29,"H",2014-05-14
"CDISCPILOT01","01-705-1303","1303","705","USA",72,"YEARS","M","WHITE","NOT HISPANIC OR LATINO","Xanomeline High Dose","Xan_Hi","Xanomeline High Dose","Xan_Hi",NA,NA,"Y",">50",3,2013-12-16,"H",2013-12-30,"H",2014-06-02
"CDISCPILOT01","01-705-1310","1310","705","USA",74,"YEARS","F","WHITE","NOT HISPANIC OR LATINO","Xanomeline High Dose","Xan_Hi","Xanomeline High Dose","Xan_Hi",NA,NA,"Y",">50",3,2013-11-02,"H",2013-11-22,"H",2014-01-23
"CDISCPILOT01","01-705-1349","1349","705","USA",86,"YEARS","F","WHITE","HISPANIC OR LATINO","Placebo","Pbo","Placebo","Pbo",NA,NA,"Y",">50",3,2013-03-10,"H",2013-03-24,"H",2013-09-08
"CDISCPILOT01","01-705-1377","1377","705","USA",63,"YEARS","F","BLACK OR AFRICAN AMERICAN","NOT HISPANIC OR LATINO","Xanomeline High Dose","Xan_Hi","Xanomeline High Dose","Xan_Hi",NA,NA,"Y",">50",3,2014-01-04,"H",2014-01-25,"H",2014-03-07
"CDISCPILOT01","01-705-1382","1382","705","USA",82,"YEARS","M","WHITE","NOT HISPANIC OR LATINO","Xanomeline High Dose","Xan_Hi","Xanomeline Low Dose","Xan_Lo",NA,NA,"Y",">50",3,2013-05-13,"H",NA,NA,2013-05-13
"CDISCPILOT01","01-705-1393","1393","705","USA",84,"YEARS","F","WHITE","NOT HISPANIC OR LATINO","Xanomeline Low Dose","Xan_Lo","Xanomeline Low Dose","Xan_Lo",NA,NA,"Y",">50",3,2012-09-07,"H",2012-09-27,"H",2013-02-20
"CDISCPILOT01","01-705-1421","1421","705","USA",87,"YEARS","M","WHITE","NOT HISPANIC OR LATINO","Screen Failure","Scrnfail","Screen Failure","Scrnfail",NA,NA,"N",">50",3,NA,NA,NA,NA,2013-01-14
"CDISCPILOT01","01-705-1431","1431","705","USA",68,"YEARS","F","WHITE","HISPANIC OR LATINO","Xanomeline Low Dose","Xan_Lo","Xanomeline Low Dose","Xan_Lo",NA,NA,"Y",">50",3,2013-06-23,"H",2013-07-07,"H",2013-12-19
"CDISCPILOT01","01-706-1041","1041","706","USA",64,"YEARS","F","BLACK OR AFRICAN AMERICAN","NOT HISPANIC OR LATINO","Placebo","Pbo","Placebo","Pbo",NA,NA,"Y",">50",3,2013-12-31,"H",2014-01-14,"H",NA
"CDISCPILOT01","01-706-1049","1049","706","USA",60,"YEARS","F","WHITE","NOT HISPANIC OR LATINO","Xanomeline High Dose","Xan_Hi","Xanomeline High Dose","Xan_Hi",NA,NA,"Y",">50",3,2013-05-14,"H",2013-05-28,"H",2013-11-26
"CDISCPILOT01","01-706-1384","1384","706","USA",74,"YEARS","F","WHITE","NOT HISPANIC OR LATINO","Xanomeline Low Dose","Xan_Lo","Xanomeline Low Dose","Xan_Lo",NA,NA,"Y",">50",3,2012-09-15,"H",2012-09-24,"H",2013-06-22
"CDISCPILOT01","01-707-1037","1037","707","USA",72,"YEARS","F","WHITE","NOT HISPANIC OR LATINO","Xanomeline Low Dose","Xan_Lo","Xanomeline Low Dose","Xan_Lo",NA,NA,"Y",">50",3,2013-12-20,"H",2013-12-24,"H",2014-01-08
"CDISCPILOT01","01-707-1206","1206","707","USA",65,"YEARS","M","WHITE","NOT HISPANIC OR LATINO","Placebo","Pbo","Placebo","Pbo",NA,NA,"Y",">50",3,2013-10-28,"H",2013-11-12,"H",2014-04-27
"CDISCPILOT01","01-707-1276","1276","707","USA",72,"YEARS","F","WHITE","NOT HISPANIC OR LATINO","Screen Failure","Scrnfail","Screen Failure","Scrnfail",NA,NA,"N",">50",3,NA,NA,NA,NA,2012-10-12
"CDISCPILOT01","01-707-1430","1430","707","USA",81,"YEARS","F","WHITE","NOT HISPANIC OR LATINO","Screen Failure","Scrnfail","Screen Failure","Scrnfail",NA,NA,"N",">50",3,NA,NA,NA,NA,2014-02-14
"CDISCPILOT01","01-707-1434","1434","707","USA",76,"YEARS","F","WHITE","NOT HISPANIC OR LATINO","Screen Failure","Scrnfail","Screen Failure","Scrnfail",NA,NA,"N",">50",3,NA,NA,NA,NA,2013-07-25
"CDISCPILOT01","01-708-1013","1013","708","USA",80,"YEARS","M","WHITE","NOT HISPANIC OR LATINO","Screen Failure","Scrnfail","Screen Failure","Scrnfail",NA,NA,"N",">50",3,NA,NA,NA,NA,2012-10-13
"CDISCPILOT01","01-708-1019","1019","708","USA",68,"YEARS","M","WHITE","NOT HISPANIC OR LATINO","Xanomeline Low Dose","Xan_Lo","Xanomeline Low Dose","Xan_Lo",NA,NA,"Y",">50",3,2013-12-20,"H",2014-01-01,"H",2014-01-23
"CDISCPILOT01","01-708-1032","1032","708","USA",62,"YEARS","M","WHITE","NOT HISPANIC OR LATINO","Xanomeline Low Dose","Xan_Lo","Xanomeline Low Dose","Xan_Lo",NA,NA,"Y",">50",3,2013-02-09,"H",2013-02-23,"H",2013-03-09
"CDISCPILOT01","01-708-1054","1054","708","USA",73,"YEARS","F","BLACK OR AFRICAN AMERICAN","NOT HISPANIC OR LATINO","Screen Failure","Scrnfail","Screen Failure","Scrnfail",NA,NA,"N",">50",3,NA,NA,NA,NA,2014-02-14
"CDISCPILOT01","01-708-1067","1067","708","USA",88,"YEARS","M","WHITE","NOT HISPANIC OR LATINO","Screen Failure","Scrnfail","Screen Failure","Scrnfail",NA,NA,"N",">50",3,NA,NA,NA,NA,2013-02-07
"CDISCPILOT01","01-708-1084","1084","708","USA",73,"YEARS","F","WHITE","NOT HISPANIC OR LATINO","Xanomeline Low Dose","Xan_Lo","Xanomeline Low Dose","Xan_Lo",NA,NA,"Y",">50",3,2013-05-09,"H",2013-05-23,"H",2013-11-11
"CDISCPILOT01","01-708-1087","1087","708","USA",74,"YEARS","F","WHITE","NOT HISPANIC OR LATINO","Placebo","Pbo","Placebo","Pbo",NA,NA,"Y",">50",3,2012-10-22,"H",2012-11-05,"H",2013-04-28
"CDISCPILOT01","01-708-1104","1104","708","USA",78,"YEARS","F","ASIAN","NOT HISPANIC OR LATINO","Screen Failure","Scrnfail","Screen Failure","Scrnfail",NA,NA,"N",">50",3,NA,NA,NA,NA,2014-01-23
"CDISCPILOT01","01-708-1158","1158","708","USA",81,"YEARS","F","WHITE","NOT HISPANIC OR LATINO","Placebo","Pbo","Placebo","Pbo",NA,NA,"Y",">50",3,2014-02-08,"H",2014-02-26,"H",2014-03-22
"CDISCPILOT01","01-708-1171","1171","708","USA",77,"YEARS","F","WHITE","NOT HISPANIC OR LATINO","Placebo","Pbo","Placebo","Pbo",NA,NA,"Y",">50",3,2012-12-06,"H",2012-12-18,"H",2013-06-04
"CDISCPILOT01","01-708-1178","1178","708","USA",77,"YEARS","F","BLACK OR AFRICAN AMERICAN","NOT HISPANIC OR LATINO","Xanomeline High Dose","Xan_Hi","Xanomeline High Dose","Xan_Hi",NA,NA,"Y",">50",3,2013-12-29,"H",2014-01-18,"H",2014-04-06
"CDISCPILOT01","01-708-1184","1184","708","USA",70,"YEARS","F","WHITE","NOT HISPANIC OR LATINO","Screen Failure","Scrnfail","Screen Failure","Scrnfail",NA,NA,"N",">50",3,NA,NA,NA,NA,2013-01-14
"CDISCPILOT01","01-708-1213","1213","708","USA",76,"YEARS","F","WHITE","NOT HISPANIC OR LATINO","Xanomeline High Dose","Xan_Hi","Xanomeline Low Dose","Xan_Lo",NA,NA,"Y",">50",3,2013-02-09,"H",2013-02-22,"H",2013-02-26
"CDISCPILOT01","01-708-1216","1216","708","USA",78,"YEARS","M","WHITE","NOT HISPANIC OR LATINO","Xanomeline High Dose","Xan_Hi","Xanomeline High Dose","Xan_Hi",NA,NA,"Y",">50",3,2012-10-24,"H",2012-11-08,"H",2012-12-06
"CDISCPILOT01","01-708-1236","1236","708","USA",86,"YEARS","F","WHITE","NOT HISPANIC OR LATINO","Xanomeline High Dose","Xan_Hi","Xanomeline Low Dose","Xan_Lo",NA,NA,"Y",">50",3,2013-09-21,"H",2013-09-21,"H",2013-09-26
"CDISCPILOT01","01-708-1242","1242","708","USA",80,"YEARS","M","WHITE","NOT HISPANIC OR LATINO","Screen Failure","Scrnfail","Screen Failure","Scrnfail",NA,NA,"N",">50",3,NA,NA,NA,NA,2012-08-13
"CDISCPILOT01","01-708-1253","1253","708","USA",61,"YEARS","M","WHITE","NOT HISPANIC OR LATINO","Placebo","Pbo","Placebo","Pbo",NA,NA,"Y",">50",3,2013-05-07,"H",2013-05-21,"H",2013-11-05
"CDISCPILOT01","01-708-1272","1272","708","USA",82,"YEARS","M","WHITE","NOT HISPANIC OR LATINO","Xanomeline Low Dose","Xan_Lo","Xanomeline Low Dose","Xan_Lo",NA,NA,"Y",">50",3,2013-02-06,"H",2013-02-21,"H",2013-04-04
"CDISCPILOT01","01-708-1286","1286","708","USA",80,"YEARS","F","BLACK OR AFRICAN AMERICAN","NOT HISPANIC OR LATINO","Placebo","Pbo","Placebo","Pbo",NA,NA,"Y",">50",3,2013-09-10,"H",2013-09-23,"H",2014-03-08
"CDISCPILOT01","01-708-1296","1296","708","USA",57,"YEARS","M","BLACK OR AFRICAN AMERICAN","NOT HISPANIC OR LATINO","Placebo","Pbo","Placebo","Pbo",NA,NA,"Y",">50",3,2013-06-14,"H",2013-06-27,"H",2013-12-12
"CDISCPILOT01","01-708-1297","1297","708","USA",61,"YEARS","M","WHITE","NOT HISPANIC OR LATINO","Xanomeline Low Dose","Xan_Lo","Xanomeline Low Dose","Xan_Lo",NA,NA,"Y",">50",3,2013-01-25,"H",2013-02-08,"H",2013-05-08
"CDISCPILOT01","01-708-1316","1316","708","USA",74,"YEARS","F","WHITE","NOT HISPANIC OR LATINO","Placebo","Pbo","Placebo","Pbo",NA,NA,"Y",">50",3,2013-08-23,"H",2013-09-05,"H",2014-03-01
"CDISCPILOT01","01-708-1336","1336","708","USA",73,"YEARS","M","WHITE","NOT HISPANIC OR LATINO","Xanomeline High Dose","Xan_Hi","Xanomeline High Dose","Xan_Hi",NA,NA,"Y",">50",3,2012-12-07,"H",2012-12-21,"H",2013-06-05
"CDISCPILOT01","01-708-1342","1342","708","USA",59,"YEARS","F","WHITE","NOT HISPANIC OR LATINO","Placebo","Pbo","Placebo","Pbo",NA,NA,"Y",">50",3,2012-12-29,"H",2013-01-12,"H",2013-06-28
"CDISCPILOT01","01-708-1347","1347","708","USA",61,"YEARS","F","WHITE","NOT HISPANIC OR LATINO","Xanomeline High Dose","Xan_Hi","Xanomeline High Dose","Xan_Hi",NA,NA,"Y",">50",3,2013-04-20,"H",2013-05-04,"H",2013-06-18
"CDISCPILOT01","01-708-1348","1348","708","USA",79,"YEARS","F","WHITE","NOT HISPANIC OR LATINO","Xanomeline Low Dose","Xan_Lo","Xanomeline Low Dose","Xan_Lo",NA,NA,"Y",">50",3,2013-08-05,"H",2013-08-19,"H",2014-02-13
"CDISCPILOT01","01-708-1352","1352","708","USA",87,"YEARS","F","WHITE","NOT HISPANIC OR LATINO","Screen Failure","Scrnfail","Screen Failure","Scrnfail",NA,NA,"N",">50",3,NA,NA,NA,NA,2013-09-16
"CDISCPILOT01","01-708-1353","1353","708","USA",87,"YEARS","F","BLACK OR AFRICAN AMERICAN","NOT HISPANIC OR LATINO","Xanomeline Low Dose","Xan_Lo","Xanomeline Low Dose","Xan_Lo",NA,NA,"Y",">50",3,2013-07-04,"H",2013-07-18,"H",2013-09-10
"CDISCPILOT01","01-708-1372","1372","708","USA",84,"YEARS","M","WHITE","NOT HISPANIC OR LATINO","Xanomeline High Dose","Xan_Hi","Xanomeline Low Dose","Xan_Lo",NA,NA,"Y",">50",3,2013-04-12,"H",2013-04-19,"H",2013-05-10
"CDISCPILOT01","01-708-1378","1378","708","USA",67,"YEARS","M","BLACK OR AFRICAN AMERICAN","NOT HISPANIC OR LATINO","Placebo","Pbo","Placebo","Pbo",NA,NA,"Y",">50",3,2013-09-03,"H",2013-09-21,"H",2014-01-28
"CDISCPILOT01","01-708-1406","1406","708","USA",71,"YEARS","F","WHITE","NOT HISPANIC OR LATINO","Xanomeline High Dose","Xan_Hi","Xanomeline High Dose","Xan_Hi",NA,NA,"Y",">50",3,2013-12-26,"H",2014-01-09,"H",2014-07-02
"CDISCPILOT01","01-708-1428","1428","708","USA",84,"YEARS","F","WHITE","NOT HISPANIC OR LATINO","Xanomeline Low Dose","Xan_Lo","Xanomeline Low Dose","Xan_Lo",NA,NA,"Y",">50",3,2013-11-09,"H",2013-11-23,"H",2014-01-31
"CDISCPILOT01","01-709-1001","1001","709","USA",76,"YEARS","F","WHITE","NOT HISPANIC OR LATINO","Placebo","Pbo","Placebo","Pbo",NA,NA,"Y",">50",3,2013-10-08,"H",2013-10-22,"H",2014-04-08
"CDISCPILOT01","01-709-1007","1007","709","USA",54,"YEARS","F","WHITE","NOT HISPANIC OR LATINO","Xanomeline Low Dose","Xan_Lo","Xanomeline Low Dose","Xan_Lo",NA,NA,"Y",">50",3,2012-07-31,"H",2012-08-18,"H",2012-09-01
"CDISCPILOT01","01-709-1020","1020","709","USA",72,"YEARS","F","WHITE","NOT HISPANIC OR LATINO","Xanomeline Low Dose","Xan_Lo","Xanomeline Low Dose","Xan_Lo",NA,NA,"Y",">50",3,2012-12-01,"H",2012-12-15,"H",2013-06-01
"CDISCPILOT01","01-709-1029","1029","709","USA",82,"YEARS","M","WHITE","NOT HISPANIC OR LATINO","Xanomeline High Dose","Xan_Hi","Xanomeline High Dose","Xan_Hi",NA,NA,"Y",">50",3,2012-12-25,"H",2013-01-09,"H",2013-06-26
"CDISCPILOT01","01-709-1081","1081","709","USA",86,"YEARS","F","WHITE","NOT HISPANIC OR LATINO","Xanomeline Low Dose","Xan_Lo","Xanomeline Low Dose","Xan_Lo",NA,NA,"Y",">50",3,2014-01-18,"H",2014-02-01,"H",2014-05-10
"CDISCPILOT01","01-709-1088","1088","709","USA",69,"YEARS","M","WHITE","NOT HISPANIC OR LATINO","Placebo","Pbo","Placebo","Pbo",NA,NA,"Y",">50",3,2014-04-12,"H",2014-04-26,"H",2014-10-09
"CDISCPILOT01","01-709-1099","1099","709","USA",79,"YEARS","F","WHITE","NOT HISPANIC OR LATINO","Xanomeline High Dose","Xan_Hi","Xanomeline High Dose","Xan_Hi",NA,NA,"Y",">50",3,2013-10-25,"H",2013-11-12,"H",2014-04-25
"CDISCPILOT01","01-709-1102","1102","709","USA",71,"YEARS","F","WHITE","NOT HISPANIC OR LATINO","Xanomeline Low Dose","Xan_Lo","Xanomeline Low Dose","Xan_Lo",NA,NA,"Y",">50",3,2013-01-15,"H",2013-01-31,"H",2013-03-31
"CDISCPILOT01","01-709-1168","1168","709","USA",72,"YEARS","F","WHITE","NOT HISPANIC OR LATINO","Xanomeline High Dose","Xan_Hi","Xanomeline High Dose","Xan_Hi",NA,NA,"Y",">50",3,2013-08-02,"H",2013-08-17,"H",2013-09-27
"CDISCPILOT01","01-709-1217","1217","709","USA",77,"YEARS","M","WHITE","NOT HISPANIC OR LATINO","Xanomeline Low Dose","Xan_Lo","Xanomeline Low Dose","Xan_Lo",NA,NA,"Y",">50",3,2013-03-04,"H",2013-03-19,"H",2013-06-25
"CDISCPILOT01","01-709-1224","1224","709","USA",84,"YEARS","M","WHITE","NOT HISPANIC OR LATINO","Screen Failure","Scrnfail","Screen Failure","Scrnfail",NA,NA,"N",">50",3,NA,NA,NA,NA,2013-11-18
"CDISCPILOT01","01-709-1237","1237","709","USA",88,"YEARS","F","WHITE","HISPANIC OR LATINO","Screen Failure","Scrnfail","Screen Failure","Scrnfail",NA,NA,"N",">50",3,NA,NA,NA,NA,2014-01-17
"CDISCPILOT01","01-709-1238","1238","709","USA",69,"YEARS","M","WHITE","NOT HISPANIC OR LATINO","Xanomeline High Dose","Xan_Hi","Xanomeline High Dose","Xan_Hi",NA,NA,"Y",">50",3,2013-05-15,"H",2013-05-29,"H",2013-08-07
"CDISCPILOT01","01-709-1259","1259","709","USA",82,"YEARS","M","WHITE","NOT HISPANIC OR LATINO","Placebo","Pbo","Placebo","Pbo",NA,NA,"Y",">50",3,2013-01-26,"H",2013-02-10,"H",2013-06-13
"CDISCPILOT01","01-709-1285","1285","709","USA",87,"YEARS","M","WHITE","NOT HISPANIC OR LATINO","Xanomeline Low Dose","Xan_Lo","Xanomeline Low Dose","Xan_Lo",NA,NA,"Y",">50",3,2013-03-24,"H",2013-04-08,"H",2013-05-31
"CDISCPILOT01","01-709-1301","1301","709","USA",62,"YEARS","F","WHITE","NOT HISPANIC OR LATINO","Placebo","Pbo","Placebo","Pbo",NA,NA,"Y",">50",3,2013-07-19,"H",2013-08-02,"H",2014-01-17
"CDISCPILOT01","01-709-1306","1306","709","USA",60,"YEARS","F","WHITE","NOT HISPANIC OR LATINO","Placebo","Pbo","Placebo","Pbo",NA,NA,"Y",">50",3,2014-02-03,"H",2014-02-19,"H",2014-06-25
"CDISCPILOT01","01-709-1309","1309","709","USA",65,"YEARS","M","WHITE","NOT HISPANIC OR LATINO","Xanomeline High Dose","Xan_Hi","Xanomeline High Dose","Xan_Hi",NA,NA,"Y",">50",3,2013-06-19,"H",2013-07-01,"H",2013-12-19
"CDISCPILOT01","01-709-1312","1312","709","USA",68,"YEARS","F","WHITE","NOT HISPANIC OR LATINO","Placebo","Pbo","Placebo","Pbo",NA,NA,"Y",">50",3,2014-04-20,"H",2014-05-10,"H",2014-10-19
"CDISCPILOT01","01-709-1326","1326","709","USA",75,"YEARS","F","WHITE","NOT HISPANIC OR LATINO","Xanomeline Low Dose","Xan_Lo","Xanomeline Low Dose","Xan_Lo",NA,NA,"Y",">50",3,2013-04-05,"H",2013-04-18,"H",2013-10-02
"CDISCPILOT01","01-709-1329","1329","709","USA",70,"YEARS","M","WHITE","NOT HISPANIC OR LATINO","Xanomeline High Dose","Xan_Hi","Xanomeline Low Dose","Xan_Lo",NA,NA,"Y",">50",3,2013-08-15,"H",2013-08-25,"H",2013-08-29
"CDISCPILOT01","01-709-1339","1339","709","USA",81,"YEARS","M","WHITE","NOT HISPANIC OR LATINO","Placebo","Pbo","Placebo","Pbo",NA,NA,"Y",">50",3,2012-12-23,"H",2013-01-05,"H",NA
"CDISCPILOT01","01-709-1424","1424","709","USA",77,"YEARS","M","WHITE","NOT HISPANIC OR LATINO","Xanomeline High Dose","Xan_Hi","Xanomeline Low Dose","Xan_Lo",NA,NA,"Y",">50",3,2013-03-03,"H",2013-03-07,"H",2013-03-17
"CDISCPILOT01","01-710-1002","1002","710","USA",88,"YEARS","M","WHITE","NOT HISPANIC OR LATINO","Xanomeline Low Dose","Xan_Lo","Xanomeline Low Dose","Xan_Lo",NA,NA,"Y",">50",3,2014-01-14,"H",2014-01-18,"H",2014-01-18
"CDISCPILOT01","01-710-1006","1006","710","USA",77,"YEARS","M","WHITE","NOT HISPANIC OR LATINO","Xanomeline High Dose","Xan_Hi","Xanomeline High Dose","Xan_Hi",NA,NA,"Y",">50",3,2013-02-10,"H",2013-02-22,"H",2013-08-10
"CDISCPILOT01","01-710-1021","1021","710","USA",79,"YEARS","M","BLACK OR AFRICAN AMERICAN","NOT HISPANIC OR LATINO","Xanomeline High Dose","Xan_Hi","Xanomeline High Dose","Xan_Hi",NA,NA,"Y",">50",3,2013-09-27,"H",2013-10-11,"H",2013-11-12
"CDISCPILOT01","01-710-1027","1027","710","USA",83,"YEARS","M","WHITE","NOT HISPANIC OR LATINO","Placebo","Pbo","Placebo","Pbo",NA,NA,"Y",">50",3,2014-02-28,"H",2014-03-14,"H",2014-08-29
"CDISCPILOT01","01-710-1045","1045","710","USA",83,"YEARS","F","WHITE","NOT HISPANIC OR LATINO","Xanomeline Low Dose","Xan_Lo","Xanomeline Low Dose","Xan_Lo",NA,NA,"Y",">50",3,2013-06-03,"H",2013-06-17,"H",2013-08-17
"CDISCPILOT01","01-710-1053","1053","710","USA",84,"YEARS","F","WHITE","NOT HISPANIC OR LATINO","Xanomeline Low Dose","Xan_Lo","Xanomeline Low Dose","Xan_Lo",NA,NA,"Y",">50",3,2012-12-26,"H",2013-01-09,"H",2013-02-26
"CDISCPILOT01","01-710-1060","1060","710","USA",82,"YEARS","M","WHITE","NOT HISPANIC OR LATINO","Placebo","Pbo","Placebo","Pbo",NA,NA,"Y",">50",3,2013-01-01,"H",2013-01-15,"H",2013-07-05
"CDISCPILOT01","01-710-1070","1070","710","USA",85,"YEARS","F","WHITE","NOT HISPANIC OR LATINO","Xanomeline High Dose","Xan_Hi","Xanomeline High Dose","Xan_Hi",NA,NA,"Y",">50",3,2012-09-08,"H",2012-09-22,"H",2013-02-23
"CDISCPILOT01","01-710-1077","1077","710","USA",76,"YEARS","F","WHITE","NOT HISPANIC OR LATINO","Placebo","Pbo","Placebo","Pbo",NA,NA,"Y",">50",3,2013-11-17,"H",2013-12-01,"H",NA
"CDISCPILOT01","01-710-1078","1078","710","USA",81,"YEARS","F","WHITE","NOT HISPANIC OR LATINO","Placebo","Pbo","Placebo","Pbo",NA,NA,"Y",">50",3,2013-09-17,"H",2013-10-06,"H",2014-03-23
"CDISCPILOT01","01-710-1083","1083","710","USA",89,"YEARS","F","WHITE","NOT HISPANIC OR LATINO","Placebo","Pbo","Placebo","Pbo","2013-08-02","Y","Y",">50",3,2013-07-22,"H",2013-08-01,"H",2013-08-02
"CDISCPILOT01","01-710-1129","1129","710","USA",69,"YEARS","F","BLACK OR AFRICAN AMERICAN","NOT HISPANIC OR LATINO","Screen Failure","Scrnfail","Screen Failure","Scrnfail",NA,NA,"N",">50",3,NA,NA,NA,NA,2013-03-05
"CDISCPILOT01","01-710-1137","1137","710","USA",79,"YEARS","F","BLACK OR AFRICAN AMERICAN","NOT HISPANIC OR LATINO","Xanomeline High Dose","Xan_Hi","Xanomeline High Dose","Xan_Hi",NA,NA,"Y",">50",3,2013-10-11,"H",2013-10-25,"H",2013-11-13
"CDISCPILOT01","01-710-1142","1142","710","USA",76,"YEARS","F","WHITE","NOT HISPANIC OR LATINO","Xanomeline High Dose","Xan_Hi","Xanomeline High Dose","Xan_Hi",NA,NA,"Y",">50",3,2012-10-02,"H",2012-10-16,"H",2012-10-23
"CDISCPILOT01","01-710-1149","1149","710","USA",79,"YEARS","F","WHITE","NOT HISPANIC OR LATINO","Screen Failure","Scrnfail","Screen Failure","Scrnfail",NA,NA,"N",">50",3,NA,NA,NA,NA,2013-11-16
"CDISCPILOT01","01-710-1154","1154","710","USA",84,"YEARS","M","WHITE","HISPANIC OR LATINO","Xanomeline Low Dose","Xan_Lo","Xanomeline Low Dose","Xan_Lo",NA,NA,"Y",">50",3,2014-03-29,"H",2014-04-12,"H",2014-05-09
"CDISCPILOT01","01-710-1166","1166","710","USA",81,"YEARS","F","WHITE","NOT HISPANIC OR LATINO","Xanomeline Low Dose","Xan_Lo","Xanomeline Low Dose","Xan_Lo",NA,NA,"Y",">50",3,2012-11-30,"H",2012-12-14,"H",2013-03-30
"CDISCPILOT01","01-710-1183","1183","710","USA",80,"YEARS","F","WHITE","NOT HISPANIC OR LATINO","Placebo","Pbo","Placebo","Pbo",NA,NA,"Y",">50",3,2013-11-16,"H",2013-11-30,"H",2014-05-17
"CDISCPILOT01","01-710-1187","1187","710","USA",78,"YEARS","F","WHITE","NOT HISPANIC OR LATINO","Xanomeline High Dose","Xan_Hi","Xanomeline High Dose","Xan_Hi",NA,NA,"Y",">50",3,2012-11-10,"H",2012-11-24,"H",2013-05-12
"CDISCPILOT01","01-710-1235","1235","710","USA",56,"YEARS","F","WHITE","HISPANIC OR LATINO","Xanomeline Low Dose","Xan_Lo","Xanomeline Low Dose","Xan_Lo",NA,NA,"Y",">50",3,2012-09-26,"H",2012-10-10,"H",2013-03-27
"CDISCPILOT01","01-710-1249","1249","710","USA",79,"YEARS","M","WHITE","NOT HISPANIC OR LATINO","Xanomeline High Dose","Xan_Hi","Xanomeline High Dose","Xan_Hi",NA,NA,"Y",">50",3,2013-12-28,"H",2014-01-11,"H",2014-06-28
"CDISCPILOT01","01-710-1257","1257","710","USA",85,"YEARS","F","WHITE","NOT HISPANIC OR LATINO","Screen Failure","Scrnfail","Screen Failure","Scrnfail",NA,NA,"N",">50",3,NA,NA,NA,NA,2013-11-29
"CDISCPILOT01","01-710-1264","1264","710","USA",78,"YEARS","M","WHITE","NOT HISPANIC OR LATINO","Placebo","Pbo","Placebo","Pbo",NA,NA,"Y",">50",3,2013-06-13,"H",2013-06-27,"H",2013-10-12
"CDISCPILOT01","01-710-1270","1270","710","USA",83,"YEARS","F","WHITE","NOT HISPANIC OR LATINO","Xanomeline Low Dose","Xan_Lo","Xanomeline Low Dose","Xan_Lo",NA,NA,"Y",">50",3,2014-02-12,"H",2014-03-01,"H",2014-03-01
"CDISCPILOT01","01-710-1271","1271","710","USA",86,"YEARS","F","WHITE","NOT HISPANIC OR LATINO","Placebo","Pbo","Placebo","Pbo",NA,NA,"Y",">50",3,2012-09-27,"H",2012-10-12,"H",2012-12-02
"CDISCPILOT01","01-710-1278","1278","710","USA",81,"YEARS","M","WHITE","NOT HISPANIC OR LATINO","Xanomeline High Dose","Xan_Hi","Xanomeline High Dose","Xan_Hi",NA,NA,"Y",">50",3,2012-12-24,"H",2013-01-07,"H",2013-03-07
"CDISCPILOT01","01-710-1300","1300","710","USA",78,"YEARS","F","WHITE","NOT HISPANIC OR LATINO","Xanomeline Low Dose","Xan_Lo","Xanomeline Low Dose","Xan_Lo",NA,NA,"Y",">50",3,2012-12-15,"H",2012-12-30,"H",2013-02-19
"CDISCPILOT01","01-710-1314","1314","710","USA",78,"YEARS","F","WHITE","NOT HISPANIC OR LATINO","Placebo","Pbo","Placebo","Pbo",NA,NA,"Y",">50",3,2013-04-24,"H",2013-05-09,"H",2013-05-25
"CDISCPILOT01","01-710-1315","1315","710","USA",83,"YEARS","F","WHITE","NOT HISPANIC OR LATINO","Placebo","Pbo","Placebo","Pbo",NA,NA,"Y",">50",3,2013-02-27,"H",2013-03-13,"H",2013-07-16
"CDISCPILOT01","01-710-1337","1337","710","USA",73,"YEARS","M","WHITE","NOT HISPANIC OR LATINO","Screen Failure","Scrnfail","Screen Failure","Scrnfail",NA,NA,"N",">50",3,NA,NA,NA,NA,2013-12-30
"CDISCPILOT01","01-710-1354","1354","710","USA",73,"YEARS","M","WHITE","NOT HISPANIC OR LATINO","Xanomeline High Dose","Xan_Hi","Xanomeline High Dose","Xan_Hi",NA,NA,"Y",">50",3,2012-11-11,"H",2012-11-25,"H",2013-05-01
"CDISCPILOT01","01-710-1358","1358","710","USA",82,"YEARS","M","WHITE","NOT HISPANIC OR LATINO","Xanomeline Low Dose","Xan_Lo","Xanomeline Low Dose","Xan_Lo",NA,NA,"Y",">50",3,2012-09-17,"H",2012-10-01,"H",2013-03-12
"CDISCPILOT01","01-710-1368","1368","710","USA",88,"YEARS","F","WHITE","NOT HISPANIC OR LATINO","Placebo","Pbo","Placebo","Pbo",NA,NA,"Y",">50",3,2013-10-23,"H",2013-11-06,"H",2014-04-24
"CDISCPILOT01","01-710-1376","1376","710","USA",89,"YEARS","F","WHITE","NOT HISPANIC OR LATINO","Screen Failure","Scrnfail","Screen Failure","Scrnfail",NA,NA,"N",">50",3,NA,NA,NA,NA,2014-04-21
"CDISCPILOT01","01-710-1380","1380","710","USA",80,"YEARS","F","WHITE","NOT HISPANIC OR LATINO","Screen Failure","Scrnfail","Screen Failure","Scrnfail",NA,NA,"N",">50",3,NA,NA,NA,NA,2013-06-02
"CDISCPILOT01","01-710-1385","1385","710","USA",77,"YEARS","M","WHITE","NOT HISPANIC OR LATINO","Xanomeline Low Dose","Xan_Lo","Xanomeline Low Dose","Xan_Lo",NA,NA,"Y",">50",3,2012-10-29,"H",2012-11-12,"H",2013-02-18
"CDISCPILOT01","01-710-1408","1408","710","USA",80,"YEARS","M","WHITE","NOT HISPANIC OR LATINO","Xanomeline High Dose","Xan_Hi","Xanomeline High Dose","Xan_Hi",NA,NA,"Y",">50",3,2013-01-05,"H",2013-01-24,"H",2013-07-12
"CDISCPILOT01","01-710-1443","1443","710","USA",88,"YEARS","F","WHITE","NOT HISPANIC OR LATINO","Screen Failure","Scrnfail","Screen Failure","Scrnfail",NA,NA,"N",">50",3,NA,NA,NA,NA,2013-12-13
"CDISCPILOT01","01-711-1012","1012","711","USA",67,"YEARS","F","WHITE","NOT HISPANIC OR LATINO","Xanomeline High Dose","Xan_Hi","Xanomeline High Dose","Xan_Hi",NA,NA,"Y",">50",3,2013-04-03,"H",2013-04-17,"H",2013-09-18
"CDISCPILOT01","01-711-1022","1022","711","USA",86,"YEARS","F","WHITE","NOT HISPANIC OR LATINO","Screen Failure","Scrnfail","Screen Failure","Scrnfail",NA,NA,"N",">50",3,NA,NA,NA,NA,2014-03-17
"CDISCPILOT01","01-711-1036","1036","711","USA",70,"YEARS","M","BLACK OR AFRICAN AMERICAN","NOT HISPANIC OR LATINO","Placebo","Pbo","Placebo","Pbo",NA,NA,"Y",">50",3,2012-07-29,"H",2012-08-12,"H",2013-02-10
"CDISCPILOT01","01-711-1143","1143","711","USA",76,"YEARS","F","WHITE","NOT HISPANIC OR LATINO","Xanomeline Low Dose","Xan_Lo","Xanomeline Low Dose","Xan_Lo",NA,NA,"Y",">50",3,2013-04-03,"H",2013-04-17,"H",NA
"CDISCPILOT01","01-711-1163","1163","711","USA",74,"YEARS","F","BLACK OR AFRICAN AMERICAN","NOT HISPANIC OR LATINO","Screen Failure","Scrnfail","Screen Failure","Scrnfail",NA,NA,"N",">50",3,NA,NA,NA,NA,2012-11-08
"CDISCPILOT01","01-711-1173","1173","711","USA",62,"YEARS","M","WHITE","NOT HISPANIC OR LATINO","Screen Failure","Scrnfail","Screen Failure","Scrnfail",NA,NA,"N",">50",3,NA,NA,NA,NA,2012-10-04
"CDISCPILOT01","01-711-1226","1226","711","USA",74,"YEARS","F","WHITE","NOT HISPANIC OR LATINO","Screen Failure","Scrnfail","Screen Failure","Scrnfail",NA,NA,"N",">50",3,NA,NA,NA,NA,2013-10-24
"CDISCPILOT01","01-711-1251","1251","711","USA",82,"YEARS","M","WHITE","NOT HISPANIC OR LATINO","Screen Failure","Scrnfail","Screen Failure","Scrnfail",NA,NA,"N",">50",3,NA,NA,NA,NA,2014-02-28
"CDISCPILOT01","01-711-1283","1283","711","USA",75,"YEARS","F","BLACK OR AFRICAN AMERICAN","NOT HISPANIC OR LATINO","Screen Failure","Scrnfail","Screen Failure","Scrnfail",NA,NA,"N",">50",3,NA,NA,NA,NA,2014-03-27
"CDISCPILOT01","01-711-1284","1284","711","USA",77,"YEARS","F","WHITE","NOT HISPANIC OR LATINO","Screen Failure","Scrnfail","Screen Failure","Scrnfail",NA,NA,"N",">50",3,NA,NA,NA,NA,2013-08-05
"CDISCPILOT01","01-711-1290","1290","711","USA",61,"YEARS","F","WHITE","NOT HISPANIC OR LATINO","Screen Failure","Scrnfail","Screen Failure","Scrnfail",NA,NA,"N",">50",3,NA,NA,NA,NA,2013-12-20
"CDISCPILOT01","01-711-1433","1433","711","USA",84,"YEARS","F","WHITE","NOT HISPANIC OR LATINO","Xanomeline High Dose","Xan_Hi","Xanomeline Low Dose","Xan_Lo",NA,NA,"Y",">50",3,2013-01-27,"H",2013-02-05,"H",2013-02-06
"CDISCPILOT01","01-713-1043","1043","713","USA",78,"YEARS","F","WHITE","NOT HISPANIC OR LATINO","Xanomeline Low Dose","Xan_Lo","Xanomeline Low Dose","Xan_Lo",NA,NA,"Y",">50",3,2013-09-15,"H",2013-09-30,"H",2014-03-24
"CDISCPILOT01","01-713-1073","1073","713","USA",74,"YEARS","F","BLACK OR AFRICAN AMERICAN","NOT HISPANIC OR LATINO","Xanomeline Low Dose","Xan_Lo","Xanomeline Low Dose","Xan_Lo",NA,NA,"Y",">50",3,2014-03-30,"H",2014-04-14,"H",2014-10-05
"CDISCPILOT01","01-713-1106","1106","713","USA",74,"YEARS","M","WHITE","NOT HISPANIC OR LATINO","Xanomeline High Dose","Xan_Hi","Xanomeline High Dose","Xan_Hi",NA,NA,"Y",">50",3,2012-10-31,"H",2012-11-15,"H",2013-05-06
"CDISCPILOT01","01-713-1141","1141","713","USA",79,"YEARS","M","WHITE","NOT HISPANIC OR LATINO","Xanomeline High Dose","Xan_Hi","Xanomeline High Dose","Xan_Hi",NA,NA,"Y",">50",3,2013-05-31,"H",2013-06-14,"H",2013-08-06
"CDISCPILOT01","01-713-1179","1179","713","USA",64,"YEARS","F","WHITE","NOT HISPANIC OR LATINO","Placebo","Pbo","Placebo","Pbo",NA,NA,"Y",">50",3,2013-08-09,"H",2013-08-24,"H",2014-02-05
"CDISCPILOT01","01-713-1209","1209","713","USA",77,"YEARS","F","WHITE","NOT HISPANIC OR LATINO","Xanomeline High Dose","Xan_Hi","Xanomeline High Dose","Xan_Hi",NA,NA,"Y",">50",3,2013-05-27,"H",2013-06-14,"H",2013-11-22
"CDISCPILOT01","01-713-1256","1256","713","USA",71,"YEARS","M","WHITE","NOT HISPANIC OR LATINO","Placebo","Pbo","Placebo","Pbo",NA,NA,"Y",">50",3,2012-09-19,"H",2012-10-03,"H",2013-03-25
"CDISCPILOT01","01-713-1269","1269","713","USA",73,"YEARS","M","WHITE","NOT HISPANIC OR LATINO","Placebo","Pbo","Placebo","Pbo",NA,NA,"Y",">50",3,2014-01-27,"H",2014-02-10,"H",2014-07-28
"CDISCPILOT01","01-713-1448","1448","713","USA",71,"YEARS","F","WHITE","NOT HISPANIC OR LATINO","Xanomeline Low Dose","Xan_Lo","Xanomeline Low Dose","Xan_Lo",NA,NA,"Y",">50",3,2014-01-19,"H",2014-02-01,"H",2014-07-27
"CDISCPILOT01","01-714-1035","1035","714","USA",88,"YEARS","F","WHITE","NOT HISPANIC OR LATINO","Placebo","Pbo","Placebo","Pbo",NA,NA,"Y",">50",3,2014-04-17,"H",2014-05-01,"H",2014-10-16
"CDISCPILOT01","01-714-1068","1068","714","USA",79,"YEARS","F","WHITE","NOT HISPANIC OR LATINO","Xanomeline Low Dose","Xan_Lo","Xanomeline Low Dose","Xan_Lo",NA,NA,"Y",">50",3,2013-08-08,"H",2013-08-22,"H",2013-10-16
"CDISCPILOT01","01-714-1195","1195","714","USA",75,"YEARS","M","WHITE","NOT HISPANIC OR LATINO","Xanomeline Low Dose","Xan_Lo","Xanomeline Low Dose","Xan_Lo",NA,NA,"Y",">50",3,2013-04-26,"H",2013-05-09,"H",2013-10-23
"CDISCPILOT01","01-714-1288","1288","714","USA",77,"YEARS","M","BLACK OR AFRICAN AMERICAN","NOT HISPANIC OR LATINO","Xanomeline High Dose","Xan_Hi","Xanomeline High Dose","Xan_Hi",NA,NA,"Y",">50",3,2013-12-04,"H",2013-12-17,"H",2014-06-17
"CDISCPILOT01","01-714-1375","1375","714","USA",78,"YEARS","F","WHITE","NOT HISPANIC OR LATINO","Placebo","Pbo","Placebo","Pbo",NA,NA,"Y",">50",3,2013-02-26,"H",2013-03-19,"H",2013-09-07
"CDISCPILOT01","01-714-1425","1425","714","USA",81,"YEARS","M","WHITE","NOT HISPANIC OR LATINO","Xanomeline High Dose","Xan_Hi","Xanomeline Low Dose","Xan_Lo",NA,NA,"Y",">50",3,2013-08-15,"H",2013-08-19,"H",2013-08-22
"CDISCPILOT01","01-715-1085","1085","715","USA",77,"YEARS","F","WHITE","NOT HISPANIC OR LATINO","Xanomeline Low Dose","Xan_Lo","Xanomeline Low Dose","Xan_Lo",NA,NA,"Y",">50",3,2013-02-16,"H",2013-03-04,"H",2013-08-18
"CDISCPILOT01","01-715-1107","1107","715","USA",65,"YEARS","M","WHITE","NOT HISPANIC OR LATINO","Xanomeline Low Dose","Xan_Lo","Xanomeline Low Dose","Xan_Lo",NA,NA,"Y",">50",3,2013-02-26,"H",2013-03-12,"H",2013-08-14
"CDISCPILOT01","01-715-1134","1134","715","USA",50,"YEARS","F","WHITE","NOT HISPANIC OR LATINO","Screen Failure","Scrnfail","Screen Failure","Scrnfail",NA,NA,"N","18-50",2,NA,NA,NA,NA,2014-04-17
"CDISCPILOT01","01-715-1155","1155","715","USA",59,"YEARS","F","WHITE","NOT HISPANIC OR LATINO","Placebo","Pbo","Placebo","Pbo",NA,NA,"Y",">50",3,2013-12-13,"H",2013-12-27,"H",2014-04-26
"CDISCPILOT01","01-715-1207","1207","715","USA",78,"YEARS","F","WHITE","NOT HISPANIC OR LATINO","Placebo","Pbo","Placebo","Pbo",NA,NA,"Y",">50",3,2012-11-18,"H",2012-12-02,"H",2013-06-01
"CDISCPILOT01","01-715-1225","1225","715","USA",77,"YEARS","F","WHITE","NOT HISPANIC OR LATINO","Screen Failure","Scrnfail","Screen Failure","Scrnfail",NA,NA,"N",">50",3,NA,NA,NA,NA,2013-01-22
"CDISCPILOT01","01-715-1319","1319","715","USA",65,"YEARS","M","WHITE","NOT HISPANIC OR LATINO","Xanomeline High Dose","Xan_Hi","Xanomeline High Dose","Xan_Hi",NA,NA,"Y",">50",3,2013-02-17,"H",2013-03-03,"H",2013-03-18
"CDISCPILOT01","01-715-1321","1321","715","USA",75,"YEARS","F","WHITE","NOT HISPANIC OR LATINO","Xanomeline High Dose","Xan_Hi","Xanomeline High Dose","Xan_Hi",NA,NA,"Y",">50",3,2014-02-11,"H",2014-02-26,"H",2014-04-22
"CDISCPILOT01","01-715-1333","1333","715","USA",75,"YEARS","F","WHITE","NOT HISPANIC OR LATINO","Screen Failure","Scrnfail","Screen Failure","Scrnfail",NA,NA,"N",">50",3,NA,NA,NA,NA,2013-06-03
"CDISCPILOT01","01-715-1397","1397","715","USA",76,"YEARS","F","WHITE","NOT HISPANIC OR LATINO","Placebo","Pbo","Placebo","Pbo",NA,NA,"Y",">50",3,2013-04-03,"H",2013-04-18,"H",2013-10-03
"CDISCPILOT01","01-715-1405","1405","715","USA",69,"YEARS","M","WHITE","NOT HISPANIC OR LATINO","Xanomeline Low Dose","Xan_Lo","Xanomeline Low Dose","Xan_Lo",NA,NA,"Y",">50",3,2013-07-06,"H",2013-07-07,"H",2014-01-11
"CDISCPILOT01","01-715-1407","1407","715","USA",73,"YEARS","F","WHITE","NOT HISPANIC OR LATINO","Screen Failure","Scrnfail","Screen Failure","Scrnfail",NA,NA,"N",">50",3,NA,NA,NA,NA,2012-10-24
"CDISCPILOT01","01-716-1003","1003","716","USA",79,"YEARS","M","WHITE","HISPANIC OR LATINO","Screen Failure","Scrnfail","Screen Failure","Scrnfail",NA,NA,"N",">50",3,NA,NA,NA,NA,2014-03-29
"CDISCPILOT01","01-716-1024","1024","716","USA",87,"YEARS","F","WHITE","NOT HISPANIC OR LATINO","Placebo","Pbo","Placebo","Pbo",NA,NA,"Y",">50",3,2012-07-09,"H",2012-07-23,"H",2013-01-20
"CDISCPILOT01","01-716-1026","1026","716","USA",73,"YEARS","F","WHITE","NOT HISPANIC OR LATINO","Placebo","Pbo","Placebo","Pbo",NA,NA,"Y",">50",3,2014-04-02,"H",2014-04-18,"H",2014-10-16
"CDISCPILOT01","01-716-1030","1030","716","USA",83,"YEARS","F","WHITE","NOT HISPANIC OR LATINO","Xanomeline High Dose","Xan_Hi","Xanomeline Low Dose","Xan_Lo",NA,NA,"Y",">50",3,2013-12-28,"H",2014-01-02,"H",2014-01-10
"CDISCPILOT01","01-716-1044","1044","716","USA",74,"YEARS","M","WHITE","NOT HISPANIC OR LATINO","Placebo","Pbo","Placebo","Pbo",NA,NA,"Y",">50",3,2013-04-27,"H",2013-05-10,"H",2013-11-03
"CDISCPILOT01","01-716-1061","1061","716","USA",81,"YEARS","M","WHITE","NOT HISPANIC OR LATINO","Screen Failure","Scrnfail","Screen Failure","Scrnfail",NA,NA,"N",">50",3,NA,NA,NA,NA,2014-02-14
"CDISCPILOT01","01-716-1063","1063","716","USA",80,"YEARS","M","WHITE","NOT HISPANIC OR LATINO","Xanomeline Low Dose","Xan_Lo","Xanomeline Low Dose","Xan_Lo",NA,NA,"Y",">50",3,2013-05-09,"H",2013-05-23,"H",2013-11-17
"CDISCPILOT01","01-716-1071","1071","716","USA",78,"YEARS","F","WHITE","NOT HISPANIC OR LATINO","Xanomeline High Dose","Xan_Hi","Xanomeline High Dose","Xan_Hi",NA,NA,"Y",">50",3,2013-06-08,"H",2013-06-22,"H",2013-12-16
"CDISCPILOT01","01-716-1094","1094","716","USA",82,"YEARS","M","WHITE","NOT HISPANIC OR LATINO","Xanomeline Low Dose","Xan_Lo","Xanomeline Low Dose","Xan_Lo",NA,NA,"Y",">50",3,2012-12-19,"H",2013-01-06,"H",2013-06-22
"CDISCPILOT01","01-716-1103","1103","716","USA",79,"YEARS","M","WHITE","NOT HISPANIC OR LATINO","Xanomeline Low Dose","Xan_Lo","Xanomeline Low Dose","Xan_Lo",NA,NA,"Y",">50",3,2014-03-20,"H",2014-04-05,"H",2014-09-20
"CDISCPILOT01","01-716-1108","1108","716","USA",86,"YEARS","F","WHITE","NOT HISPANIC OR LATINO","Placebo","Pbo","Placebo","Pbo",NA,NA,"Y",">50",3,2013-02-12,"H",2013-02-26,"H",2013-08-10
"CDISCPILOT01","01-716-1151","1151","716","USA",83,"YEARS","F","WHITE","NOT HISPANIC OR LATINO","Xanomeline Low Dose","Xan_Lo","Xanomeline Low Dose","Xan_Lo",NA,NA,"Y",">50",3,2013-02-01,"H",2013-02-15,"H",2013-08-13
"CDISCPILOT01","01-716-1157","1157","716","USA",85,"YEARS","M","WHITE","NOT HISPANIC OR LATINO","Xanomeline Low Dose","Xan_Lo","Xanomeline Low Dose","Xan_Lo",NA,NA,"Y",">50",3,2013-10-02,"H",2013-10-16,"H",2014-04-05
"CDISCPILOT01","01-716-1160","1160","716","USA",83,"YEARS","F","WHITE","NOT HISPANIC OR LATINO","Placebo","Pbo","Placebo","Pbo",NA,NA,"Y",">50",3,2013-04-05,"H",2013-04-19,"H",2013-10-11
"CDISCPILOT01","01-716-1167","1167","716","USA",68,"YEARS","M","WHITE","NOT HISPANIC OR LATINO","Xanomeline Low Dose","Xan_Lo","Xanomeline Low Dose","Xan_Lo",NA,NA,"Y",">50",3,2012-10-08,"H",2012-10-29,"H",2013-04-13
"CDISCPILOT01","01-716-1177","1177","716","USA",72,"YEARS","M","WHITE","NOT HISPANIC OR LATINO","Placebo","Pbo","Placebo","Pbo",NA,NA,"Y",">50",3,2014-09-02,"H",2014-09-16,"H",2015-03-05
"CDISCPILOT01","01-716-1189","1189","716","USA",81,"YEARS","M","WHITE","NOT HISPANIC OR LATINO","Xanomeline High Dose","Xan_Hi","Xanomeline High Dose","Xan_Hi",NA,NA,"Y",">50",3,2012-10-09,"H",2012-10-24,"H",2013-04-08
"CDISCPILOT01","01-716-1229","1229","716","USA",73,"YEARS","F","WHITE","NOT HISPANIC OR LATINO","Xanomeline High Dose","Xan_Hi","Xanomeline High Dose","Xan_Hi",NA,NA,"Y",">50",3,2013-02-20,"H",2013-03-06,"H",2013-04-02
"CDISCPILOT01","01-716-1244","1244","716","USA",72,"YEARS","F","WHITE","NOT HISPANIC OR LATINO","Screen Failure","Scrnfail","Screen Failure","Scrnfail",NA,NA,"N",">50",3,NA,NA,NA,NA,2013-08-15
"CDISCPILOT01","01-716-1298","1298","716","USA",76,"YEARS","F","WHITE","NOT HISPANIC OR LATINO","Xanomeline Low Dose","Xan_Lo","Xanomeline Low Dose","Xan_Lo",NA,NA,"Y",">50",3,2013-04-08,"H",2013-04-22,"H",2013-10-07
"CDISCPILOT01","01-716-1305","1305","716","USA",73,"YEARS","F","WHITE","NOT HISPANIC OR LATINO","Screen Failure","Scrnfail","Screen Failure","Scrnfail",NA,NA,"N",">50",3,NA,NA,NA,NA,2013-08-06
"CDISCPILOT01","01-716-1308","1308","716","USA",76,"YEARS","F","WHITE","NOT HISPANIC OR LATINO","Placebo","Pbo","Placebo","Pbo",NA,NA,"Y",">50",3,2013-08-28,"H",2013-09-12,"H",2013-10-07
"CDISCPILOT01","01-716-1311","1311","716","USA",78,"YEARS","M","WHITE","NOT HISPANIC OR LATINO","Xanomeline Low Dose","Xan_Lo","Xanomeline Low Dose","Xan_Lo",NA,NA,"Y",">50",3,2014-05-14,"H",2014-05-28,"H",2014-11-15
"CDISCPILOT01","01-716-1331","1331","716","USA",59,"YEARS","F","WHITE","NOT HISPANIC OR LATINO","Screen Failure","Scrnfail","Screen Failure","Scrnfail",NA,NA,"N",">50",3,NA,NA,NA,NA,2013-11-25
"CDISCPILOT01","01-716-1364","1364","716","USA",84,"YEARS","F","WHITE","NOT HISPANIC OR LATINO","Xanomeline High Dose","Xan_Hi","Xanomeline High Dose","Xan_Hi",NA,NA,"Y",">50",3,2013-07-04,"H",2013-07-17,"H",2014-01-09
"CDISCPILOT01","01-716-1373","1373","716","USA",74,"YEARS","M","WHITE","NOT HISPANIC OR LATINO","Xanomeline High Dose","Xan_Hi","Xanomeline High Dose","Xan_Hi",NA,NA,"Y",">50",3,2012-12-14,"H",2012-12-30,"H",2013-02-28
"CDISCPILOT01","01-716-1418","1418","716","USA",80,"YEARS","F","WHITE","NOT HISPANIC OR LATINO","Xanomeline High Dose","Xan_Hi","Xanomeline High Dose","Xan_Hi",NA,NA,"Y",">50",3,2013-05-05,"H",2013-05-19,"H",NA
"CDISCPILOT01","01-716-1441","1441","716","USA",85,"YEARS","M","WHITE","NOT HISPANIC OR LATINO","Placebo","Pbo","Placebo","Pbo",NA,NA,"Y",">50",3,2014-01-22,"H",2014-02-06,"H",2014-07-22
"CDISCPILOT01","01-716-1447","1447","716","USA",72,"YEARS","F","WHITE","NOT HISPANIC OR LATINO","Xanomeline High Dose","Xan_Hi","Xanomeline High Dose","Xan_Hi",NA,NA,"Y",">50",3,2013-12-16,"H",2013-12-31,"H",2014-06-17
"CDISCPILOT01","01-717-1004","1004","717","USA",80,"YEARS","F","WHITE","NOT HISPANIC OR LATINO","Xanomeline Low Dose","Xan_Lo","Xanomeline Low Dose","Xan_Lo",NA,NA,"Y",">50",3,2014-01-14,"H",2014-01-28,"H",NA
"CDISCPILOT01","01-717-1109","1109","717","USA",84,"YEARS","M","WHITE","NOT HISPANIC OR LATINO","Xanomeline High Dose","Xan_Hi","Xanomeline High Dose","Xan_Hi",NA,NA,"Y",">50",3,2014-01-27,"H",2014-02-10,"H",2014-07-28
"CDISCPILOT01","01-717-1174","1174","717","USA",73,"YEARS","M","WHITE","NOT HISPANIC OR LATINO","Xanomeline High Dose","Xan_Hi","Xanomeline High Dose","Xan_Hi",NA,NA,"Y",">50",3,2013-01-22,"H",2013-02-04,"H",2013-07-24
"CDISCPILOT01","01-717-1201","1201","717","USA",85,"YEARS","F","WHITE","NOT HISPANIC OR LATINO","Placebo","Pbo","Placebo","Pbo",NA,NA,"Y",">50",3,2013-12-19,"H",2014-01-03,"H",2014-02-21
"CDISCPILOT01","01-717-1344","1344","717","USA",64,"YEARS","F","WHITE","NOT HISPANIC OR LATINO","Placebo","Pbo","Placebo","Pbo",NA,NA,"Y",">50",3,2014-01-11,"H",2014-01-24,"H",2014-03-14
"CDISCPILOT01","01-717-1357","1357","717","USA",77,"YEARS","M","WHITE","NOT HISPANIC OR LATINO","Xanomeline High Dose","Xan_Hi","Xanomeline High Dose","Xan_Hi",NA,NA,"Y",">50",3,2013-05-01,"H",2013-05-15,"H",NA
"CDISCPILOT01","01-717-1446","1446","717","USA",75,"YEARS","F","WHITE","NOT HISPANIC OR LATINO","Xanomeline Low Dose","Xan_Lo","Xanomeline Low Dose","Xan_Lo",NA,NA,"Y",">50",3,2013-09-01,"H",2013-09-16,"H",2014-03-17
"CDISCPILOT01","01-718-1066","1066","718","USA",79,"YEARS","F","WHITE","NOT HISPANIC OR LATINO","Xanomeline Low Dose","Xan_Lo","Xanomeline Low Dose","Xan_Lo",NA,NA,"Y",">50",3,2013-07-07,"H",2013-07-16,"H",2013-07-30
"CDISCPILOT01","01-718-1079","1079","718","USA",67,"YEARS","F","WHITE","NOT HISPANIC OR LATINO","Xanomeline Low Dose","Xan_Lo","Xanomeline Low Dose","Xan_Lo",NA,NA,"Y",">50",3,2012-09-19,"H",2012-10-03,"H",2013-03-05
"CDISCPILOT01","01-718-1101","1101","718","USA",82,"YEARS","M","BLACK OR AFRICAN AMERICAN","NOT HISPANIC OR LATINO","Xanomeline High Dose","Xan_Hi","Xanomeline High Dose","Xan_Hi",NA,NA,"Y",">50",3,2013-02-17,"H",2013-03-03,"H",2013-08-02
"CDISCPILOT01","01-718-1139","1139","718","USA",77,"YEARS","M","WHITE","NOT HISPANIC OR LATINO","Placebo","Pbo","Placebo","Pbo",NA,NA,"Y",">50",3,2013-05-19,"H",2013-06-02,"H",2013-11-17
"CDISCPILOT01","01-718-1150","1150","718","USA",73,"YEARS","F","WHITE","NOT HISPANIC OR LATINO","Placebo","Pbo","Placebo","Pbo",NA,NA,"Y",">50",3,2013-01-19,"H",2013-02-02,"H",2013-07-31
"CDISCPILOT01","01-718-1170","1170","718","USA",80,"YEARS","F","WHITE","NOT HISPANIC OR LATINO","Xanomeline Low Dose","Xan_Lo","Xanomeline Low Dose","Xan_Lo",NA,NA,"Y",">50",3,2013-09-16,"H",2013-09-29,"H",2014-03-15
"CDISCPILOT01","01-718-1172","1172","718","USA",74,"YEARS","M","WHITE","NOT HISPANIC OR LATINO","Placebo","Pbo","Placebo","Pbo",NA,NA,"Y",">50",3,2013-09-21,"H",2013-10-05,"H",2014-03-21
"CDISCPILOT01","01-718-1250","1250","718","USA",82,"YEARS","F","WHITE","HISPANIC OR LATINO","Xanomeline Low Dose","Xan_Lo","Xanomeline Low Dose","Xan_Lo",NA,NA,"Y",">50",3,2013-09-21,"H",2013-10-03,"H",2014-03-08
"CDISCPILOT01","01-718-1254","1254","718","USA",78,"YEARS","M","WHITE","HISPANIC OR LATINO","Xanomeline Low Dose","Xan_Lo","Xanomeline Low Dose","Xan_Lo",NA,NA,"Y",">50",3,2013-07-10,"H",2013-07-25,"H",2014-01-09
"CDISCPILOT01","01-718-1328","1328","718","USA",86,"YEARS","M","WHITE","NOT HISPANIC OR LATINO","Xanomeline High Dose","Xan_Hi","Xanomeline High Dose","Xan_Hi",NA,NA,"Y",">50",3,2013-02-01,"H",2013-02-14,"H",2013-07-24
"CDISCPILOT01","01-718-1355","1355","718","USA",79,"YEARS","M","WHITE","NOT HISPANIC OR LATINO","Placebo","Pbo","Placebo","Pbo",NA,NA,"Y",">50",3,2013-02-28,"H",2013-03-16,"H",NA
"CDISCPILOT01","01-718-1371","1371","718","USA",69,"YEARS","F","WHITE","NOT HISPANIC OR LATINO","Xanomeline High Dose","Xan_Hi","Xanomeline High Dose","Xan_Hi",NA,NA,"Y",">50",3,2013-04-26,"H",2013-05-08,"H",2013-08-08
"CDISCPILOT01","01-718-1427","1427","718","USA",74,"YEARS","F","BLACK OR AFRICAN AMERICAN","NOT HISPANIC OR LATINO","Xanomeline High Dose","Xan_Hi","Xanomeline High Dose","Xan_Hi",NA,NA,"Y",">50",3,2012-12-17,"H",2012-12-31,"H",2013-06-03
